Folder: SOD-Laboratory/X-ray/data/input/XRD

Note: README.md
# SOD-Laboratory

This repository provides code and how-to examples for processing raw data from instrument systems owned and operated by Scientific Ocean Drilling at Texas A&M University. Many of these systems were housed on the R/V JOIDES Resolution overseen by the Joides Science Operator (JRSO) as part of the International Ocean Discovery Program and were shipped back to shore laboratories in College Station, TX after the completion of the ship demobilization.

Folders are organized by laboratory. The iodp module contains Python code used within many of the Jupyter Notebooks.

# Installation 

```powershell
# ensure python is installed.
python --version

# ensure anaconda is installed
conda --version

# ensure git is installed
git --version

# create a new python virtual environment called "sod"
conda create --name sod python=3.13

# clone remote repo to local folder
git clone "remote location"

# activate virtual environment
conda activate sod

cd ./SOD-Laboratory

# from within the SOD-Laboratory folder:
# The iodp module must be a subfolder.
# pip install with the "-e" flag instals the module as an editable file location
# This helps with active development
pip install -e iodp

```

File: U1587A_2H3_66_67_CYL11802171.uxd
;content of C:\DATA\IN\U1587A_2H3_66_67_CYL11802171.raw - (Diffrac Plus V4 file)
_FILEVERSION = 3
_SAMPLE = U1587A_2H3_66_67_CYL11802171
_+SAMPLE = Bulk Samples
_SITE = JOIDES Resolution
_USER = Heather Barnes and Kristin Bronk
_GONIOMETER_CODE = 22
_STAGE_CODE = 0
; Goniometer : Unknown, stage : Standard
_GONIOMETER_RADIUS = 200.5
_FIXED_DIVSLIT = 0.6
_FIXED_SAMPLESLIT = 1
_SOLLER_SLITS = 2
_FIXED_DETSLIT = 9.5
_MONOCHROMATOR = 0
; Incident beam monochromator : None
_SOLLER_SLITS_2 = 2
_THIN_FILM = N
_BETA_FILTER = N
_FIXED_ANTISLIT = 5.28
_ANALYZER_CODE = 0
; Received beam analyzer : None
_DATEMEASURED = 03-Nov-2022 21:13:08
_WL_UNIT = A
_WL1 = 1.5406
_WL2 = 1.54439
_WL3 = 1.39222
_WLRATIO = 0.5
_ANODE = Cu
_V4_INF_CREATOR = XRDWizard
_V4_INF_CREATOR_VERSION = V2.9.0.22
_V4_INF_WIZARD_VERSION = V2.9.0.22
_V4_INF_WIZARD_ADDINS = V2.9.0.22
_V4_INF_WIZARD_DOCTYPE = XRD
_V4_INF_COMMENT = Bulk Samples
_V4_INF_OSUSER = daq
_V4_INF_USER = Heather Barnes and Kristin Bronk
_V4_INF_SITE = JOIDES Resolution
_V4_INF_SAMPLEID = U1587A_2H3_66_67_CYL11802171

; Data for range 1
_DRIVE = COUPLED
_STEPTIME = 146.8
_STEPSIZE = 0.008245
_STEPMODE = C
_START = 4
_THETA = 2
_2THETA = 4
_PHI = 0
_DIVERGENCE = 0.298
_DETECTOR = 1
; Detector type : Scintillation counter
_HV = 879.8
_GAIN = 80
_LLD = 0.6655
_ULD = 1.6455
_DETECTORSLIT = unkn
_TIMESTARTED = 23
_ROTATION_SPEED = 30
_KV = 40
_MA = 40
_RANGE_WL = 1.5406
_3DPLANE = 0
_V4_PSD2THETA = 2.4564
_V4_PSDCHANNEL1 = 0
_V4_PSDAPERTURE = 9999
_V4_PSDTYPE = 4
_V4_PSDFIXED = 0
_V4_D8_DIBNUM = 1
_V4_DETECTORNAME = Detector 1
_V4_TTLDETECTOR
_V4_DETECTORTYPE = 1
_V4_DETECTORFLAGS = 256
_V4_DETECTORHV = 879.8
_V4_DETECTORGAIN = 80
_V4_DETECTORLLD1 = 0.6655
_V4_DETECTORWW1 = 0.98
_V4_DETECTORLLD2 = 0
_V4_DETECTORWW2 = 0
_V4_DETECTORPS = 9999
_V4_DETECTORDT = 0
_V4_DETECTORPILEUPTIME = 0
_V4_COUNTERS_MASK = 1
_V4_DRIVES_MASK = 0
_V4_ENCODERS_MASK = 0
_COUNTS = 1
; Cnt2_D1
7381
6656
6124
5897
5450
5326
5270
5409
5299
5332
5877
6180
6800
7030
6202
5398
5025
4837
4712
4537
4643
5175
6642
4085
3764
3598
3433
3219
3083
3031
2856
2830
2809
2661
2701
2661
2807
3084
3798
2575
2444
2215
2207
2180
2097
2078
2036
2052
1979
2029
1962
1950
1989
1940
1989
1913
1877
1867
1873
1930
1896
2057
2658
1889
1911
1960
2013
1994
1938
2075
2492
3680
2918
2597
2365
2552
4088
2141
2149
2147
1970
2264
1957
1993
1965
2320
2464
2042
2215
2278
2129
2156
2016
2109
2458
2708
2607
2356
2116
2107
2391
3788
13484
3109
2277
2467
2288
2801
2403
2137
1978
1948
1983
2332
14041
3039
2464
2077
1999
2038
2179
3634
2008
2162
2289
2074
1939
1739
1647
1610
1673
1642
1645
1606
1582
1706
1766
2169
2427
2920
2401
2067
1871
2139
3078
1799
2855
2032
1891
1881
1985
2010
1899
1727
1737
1594
1645
1548
1657
3985
2086
1626
1681
2138
1529
1636
1706
1768
1593
1548
1564
1670
1663
2077
1584
1543
3322
1702
1507
1458
1498
1495
1466
1562
1631
1680
2636
1877
1826
1524
1422
1450
1433
1516
1860
2171
2577
1564
1428
1634
3238
1694
1338
1432
1387
1406
1414
2515
1851
1471
1462
1455
1395
1246
1324
1266
1274
1285
1373
1287
1378
1364
1375
1399
1532
1475
1529
1470
1570
1792
1732
1588
1583
1582
1483
1493
1835
1596
1413
1520
2088
1613
1361
1430
1346
1264
1357
1324
1347
1380
1484
2013
1968
1428
1527
1842
1705
1692
1731
1797
1678
1506
1507
1485
1359
1442
1424
1419
1369
1288
1385
1299
1382
1586
1421
1367
1406
1538
1370
1344
1242
1276
1180
1213
1276
1336
1668
1673
2060
1940
1405
1220
1335
1457
1393
1316
1308
1298